reward_today,future_reward,delay,trials.thisRepN,trials.thisTrialN,trials.thisN,trials.thisIndex,thisRow.t,notes,trial.started,fixation.started,text.started,key_resp.started,fixation.stopped,trial.stopped,key_resp.keys,key_resp.rt,key_resp.duration,participant,session,date,expName,psychopyVersion,frameRate,expStart
15,35,13,0,0,0,1,0.0926442,,0.0164103,0.0926442,0.9993979,0.9993979,1.1001434,8.6897427,l,7.6750188,None,128107,1,2024-11-13_22h43.15.103,DelayDiscountingExperiment,2024.1.5,None,2024-11-13 22h43.22.614994 +0530
67,75,119,0,1,1,5,8.7038189,,8.6933015,8.7038189,9.6924532,9.6924532,9.709153,10.8804153,t,1.1859973,None,128107,1,2024-11-13_22h43.15.103,DelayDiscountingExperiment,2024.1.5,None,2024-11-13 22h43.22.614994 +0530
49,60,89,0,2,2,4,10.8961473,,10.8819013,10.8961473,11.8953545,11.8953545,11.8953545,12.4816181,t,0.57019,None,128107,1,2024-11-13_22h43.15.103,DelayDiscountingExperiment,2024.1.5,None,2024-11-13 22h43.22.614994 +0530
27,50,21,0,3,3,2,12.4963918,,12.4832812,12.4963918,13.4974652,13.4974652,13.4974652,14.5010279,t,0.9982446,None,128107,1,2024-11-13_22h43.15.103,DelayDiscountingExperiment,2024.1.5,None,2024-11-13 22h43.22.614994 +0530
40,55,62,0,4,4,3,14.5149447,,14.5022399,14.5149447,15.5161368,15.5161368,15.5161368,16.1521901,t,0.6272413,None,128107,1,2024-11-13_22h43.15.103,DelayDiscountingExperiment,2024.1.5,None,2024-11-13 22h43.22.614994 +0530
78,80,162,0,5,5,6,16.1670394,,16.1533162,16.1670394,17.1679831,17.1679831,17.1679831,17.9532285,t,0.7714263,None,128107,1,2024-11-13_22h43.15.103,DelayDiscountingExperiment,2024.1.5,None,2024-11-13 22h43.22.614994 +0530
11,30,7,0,6,6,0,17.9684915,,17.9538979,17.9684915,18.9532171,18.9532171,18.9700169,20.3229093,l,1.3625173,None,128107,1,2024-11-13_22h43.15.103,DelayDiscountingExperiment,2024.1.5,None,2024-11-13 22h43.22.614994 +0530
11,30,7,1,0,7,0,20.3379547,,20.3239541,20.3379547,21.3393343,21.3393343,21.3393343,22.9259301,l,1.5748396,None,128107,1,2024-11-13_22h43.15.103,DelayDiscountingExperiment,2024.1.5,None,2024-11-13 22h43.22.614994 +0530
40,55,62,1,1,8,3,22.9405932,,22.927104,22.9405932,23.9252097,23.9252097,23.9422188,24.6443792,t,0.7123474,None,128107,1,2024-11-13_22h43.15.103,DelayDiscountingExperiment,2024.1.5,None,2024-11-13 22h43.22.614994 +0530
27,50,21,1,2,9,2,24.6594121,,24.6456318,24.6594121,25.6607385,25.6607385,25.6607385,26.7970667,t,1.1256577,None,128107,1,2024-11-13_22h43.15.103,DelayDiscountingExperiment,2024.1.5,None,2024-11-13 22h43.22.614994 +0530
78,80,162,1,3,10,6,26.8118501,,26.7982198,26.8118501,27.8130072,27.8130072,27.8130072,28.6496745,t,0.8317197,None,128107,1,2024-11-13_22h43.15.103,DelayDiscountingExperiment,2024.1.5,None,2024-11-13 22h43.22.614994 +0530
49,60,89,1,4,11,4,28.6643364,,28.6509253,28.6643364,29.6650371,29.6650371,29.6650371,32.7039612,t,3.0278309,None,128107,1,2024-11-13_22h43.15.103,DelayDiscountingExperiment,2024.1.5,None,2024-11-13 22h43.22.614994 +0530
67,75,119,1,5,12,5,32.7181708,,32.705047,32.7181708,33.7194584,33.7194584,33.7194584,34.4212122,t,0.6925463,None,128107,1,2024-11-13_22h43.15.103,DelayDiscountingExperiment,2024.1.5,None,2024-11-13 22h43.22.614994 +0530
15,35,13,1,6,13,1,34.4367013,,34.4220407,34.4367013,35.421963,35.421963,35.4383025,36.6074052,t,1.1713468,None,128107,1,2024-11-13_22h43.15.103,DelayDiscountingExperiment,2024.1.5,None,2024-11-13 22h43.22.614994 +0530
11,30,7,2,0,14,0,36.6221928,,36.6084213,36.6221928,37.6237243,37.6237243,37.6237243,38.3933986,l,0.7632903,None,128107,1,2024-11-13_22h43.15.103,DelayDiscountingExperiment,2024.1.5,None,2024-11-13 22h43.22.614994 +0530
67,75,119,2,1,15,5,38.408055,,38.3946241,38.408055,39.4090673,39.4090673,39.4090673,40.0295369,t,0.6184702,None,128107,1,2024-11-13_22h43.15.103,DelayDiscountingExperiment,2024.1.5,None,2024-11-13 22h43.22.614994 +0530
78,80,162,2,2,16,6,40.0429748,,40.0307466,40.0429748,41.0440569,41.0440569,41.0440569,41.4962812,t,0.4385824,None,128107,1,2024-11-13_22h43.15.103,DelayDiscountingExperiment,2024.1.5,None,2024-11-13 22h43.22.614994 +0530
27,50,21,2,3,17,2,41.5112095,,41.497504,41.5112095,42.512426,42.512426,42.512426,43.8160367,t,1.2946365,None,128107,1,2024-11-13_22h43.15.103,DelayDiscountingExperiment,2024.1.5,None,2024-11-13 22h43.22.614994 +0530
49,60,89,2,4,18,4,43.8311935,,43.8172251,43.8311935,44.831757,44.831757,44.831757,45.3680786,t,0.5278473,None,128107,1,2024-11-13_22h43.15.103,DelayDiscountingExperiment,2024.1.5,None,2024-11-13 22h43.22.614994 +0530
15,35,13,2,5,19,1,45.382269,,45.3692628,45.382269,46.3835461,46.3835461,46.3835461,47.1530841,t,0.7623385,None,128107,1,2024-11-13_22h43.15.103,DelayDiscountingExperiment,2024.1.5,None,2024-11-13 22h43.22.614994 +0530
40,55,62,2,6,20,3,47.1671299,,47.1541858,47.1671299,48.1690103,48.1690103,48.1690103,48.7049379,t,0.5305891,None,128107,1,2024-11-13_22h43.15.103,DelayDiscountingExperiment,2024.1.5,None,2024-11-13 22h43.22.614994 +0530
40,55,62,3,0,21,3,48.7189018,,48.7057958,48.7189018,49.7206283,49.7206283,49.7206283,50.1558821,t,0.4286327,None,128107,1,2024-11-13_22h43.15.103,DelayDiscountingExperiment,2024.1.5,None,2024-11-13 22h43.22.614994 +0530
78,80,162,3,1,22,6,50.1705025,,50.1569365,50.1705025,51.1720962,51.1720962,51.1720962,51.640962,t,0.4528616,None,128107,1,2024-11-13_22h43.15.103,DelayDiscountingExperiment,2024.1.5,None,2024-11-13 22h43.22.614994 +0530
49,60,89,3,2,23,4,51.6559363,,51.6419549,51.6559363,52.6570416,52.6570416,52.6570416,53.1424875,t,0.4726265,None,128107,1,2024-11-13_22h43.15.103,DelayDiscountingExperiment,2024.1.5,None,2024-11-13 22h43.22.614994 +0530
11,30,7,3,3,24,0,53.1576758,,53.1437371,53.1576758,54.1589318,54.1589318,54.1589318,54.5448106,t,0.3835458,None,128107,1,2024-11-13_22h43.15.103,DelayDiscountingExperiment,2024.1.5,None,2024-11-13 22h43.22.614994 +0530
15,35,13,3,4,25,1,54.5594878,,54.5460019,54.5594878,55.5603585,55.5603585,55.5603585,56.2131907,t,0.6497477,None,128107,1,2024-11-13_22h43.15.103,DelayDiscountingExperiment,2024.1.5,None,2024-11-13 22h43.22.614994 +0530
67,75,119,3,5,26,5,56.2275694,,56.2143332,56.2275694,57.2287308,57.2287308,57.2287308,57.8315443,t,0.600492,None,128107,1,2024-11-13_22h43.15.103,DelayDiscountingExperiment,2024.1.5,None,2024-11-13 22h43.22.614994 +0530
27,50,21,3,6,27,2,57.8458132,,57.8328022,57.8458132,58.8472683,58.8472683,58.8472683,59.4155525,t,0.5539333,None,128107,1,2024-11-13_22h43.15.103,DelayDiscountingExperiment,2024.1.5,None,2024-11-13 22h43.22.614994 +0530
15,35,13,4,0,28,1,59.4306837,,59.4162672,59.4306837,60.4161016,60.4161016,60.4324775,61.3021067,t,0.8760094,None,128107,1,2024-11-13_22h43.15.103,DelayDiscountingExperiment,2024.1.5,None,2024-11-13 22h43.22.614994 +0530
40,55,62,4,1,29,3,61.3162904,,61.3033238,61.3162904,62.317462,62.317462,62.317462,62.7368768,t,0.4026369,None,128107,1,2024-11-13_22h43.15.103,DelayDiscountingExperiment,2024.1.5,None,2024-11-13 22h43.22.614994 +0530
78,80,162,4,2,30,6,62.7510582,,62.7381727,62.7510582,63.7525323,63.7525323,63.7525323,65.0723682,t,1.3078223,None,128107,1,2024-11-13_22h43.15.103,DelayDiscountingExperiment,2024.1.5,None,2024-11-13 22h43.22.614994 +0530
67,75,119,4,3,31,5,65.0870527,,65.0733505,65.0870527,66.0886974,66.0886974,66.0886974,67.7756263,t,1.6848215,None,128107,1,2024-11-13_22h43.15.103,DelayDiscountingExperiment,2024.1.5,None,2024-11-13 22h43.22.614994 +0530
27,50,21,4,4,32,2,67.7901802,,67.7768115,67.7901802,68.7914907,68.7914907,68.7914907,70.0108564,t,1.206716,None,128107,1,2024-11-13_22h43.15.103,DelayDiscountingExperiment,2024.1.5,None,2024-11-13 22h43.22.614994 +0530
11,30,7,4,5,33,0,70.0284968,,70.0118019,70.0284968,71.0103317,71.0103317,71.0441249,71.5456673,l,0.520968,None,128107,1,2024-11-13_22h43.15.103,DelayDiscountingExperiment,2024.1.5,None,2024-11-13 22h43.22.614994 +0530
49,60,89,4,6,34,4,71.5608565,,71.546284,71.5608565,72.5457756,72.5457756,72.5622575,74.1488544,t,1.5928219,None,128107,1,2024-11-13_22h43.15.103,DelayDiscountingExperiment,2024.1.5,None,2024-11-13 22h43.22.614994 +0530
40,55,62,5,0,35,3,74.1637598,,74.15,74.1637598,75.1486286,75.1486286,75.1655318,75.934287,t,0.7706448,None,128107,1,2024-11-13_22h43.15.103,DelayDiscountingExperiment,2024.1.5,None,2024-11-13 22h43.22.614994 +0530
49,60,89,5,1,36,4,75.9488805,,75.9354124,75.9488805,76.9504512,76.9504512,76.9504512,77.4038524,t,0.4370492,None,128107,1,2024-11-13_22h43.15.103,DelayDiscountingExperiment,2024.1.5,None,2024-11-13 22h43.22.614994 +0530
78,80,162,5,2,37,6,77.4176756,,77.4053316,77.4176756,78.4185025,78.4185025,78.4185025,81.657946,t,3.2292782,None,128107,1,2024-11-13_22h43.15.103,DelayDiscountingExperiment,2024.1.5,None,2024-11-13 22h43.22.614994 +0530
15,35,13,5,3,38,1,81.6718414,,81.6590528,81.6718414,82.6735574,82.6735574,82.6735574,85.1103302,l,2.4298558,None,128107,1,2024-11-13_22h43.15.103,DelayDiscountingExperiment,2024.1.5,None,2024-11-13 22h43.22.614994 +0530
67,75,119,5,4,39,5,85.1254689,,85.1110259,85.1254689,86.1108908,86.1108908,86.1273762,87.0314435,t,0.9180968,None,128107,1,2024-11-13_22h43.15.103,DelayDiscountingExperiment,2024.1.5,None,2024-11-13 22h43.22.614994 +0530
11,30,7,5,5,40,0,87.046088,,87.0327208,87.046088,88.0463474,88.0463474,88.0463474,89.8151617,l,1.7531548,None,128107,1,2024-11-13_22h43.15.103,DelayDiscountingExperiment,2024.1.5,None,2024-11-13 22h43.22.614994 +0530
27,50,21,5,6,41,2,89.8306379,,89.8158592,89.8306379,90.8159359,90.8159359,90.8325797,92.5867003,t,1.7658095,None,128107,1,2024-11-13_22h43.15.103,DelayDiscountingExperiment,2024.1.5,None,2024-11-13 22h43.22.614994 +0530
15,35,13,6,0,42,1,92.6006193,,92.5878364,92.6006193,93.6016172,93.6016172,93.6016172,95.9235099,t,2.310473,None,128107,1,2024-11-13_22h43.15.103,DelayDiscountingExperiment,2024.1.5,None,2024-11-13 22h43.22.614994 +0530
40,55,62,6,1,43,3,95.9382083,,95.9247248,95.9382083,96.9384252,96.9384252,96.9384252,97.6416877,t,0.6958743,None,128107,1,2024-11-13_22h43.15.103,DelayDiscountingExperiment,2024.1.5,None,2024-11-13 22h43.22.614994 +0530
78,80,162,6,2,44,6,97.6564044,,97.6428362,97.6564044,98.6576692,98.6576692,98.6576692,99.2284738,t,0.5666555,None,128107,1,2024-11-13_22h43.15.103,DelayDiscountingExperiment,2024.1.5,None,2024-11-13 22h43.22.614994 +0530
11,30,7,6,3,45,0,99.2425435,,99.2297138,99.2425435,100.2427091,100.2427091,100.2427091,101.1617926,l,0.9104925,None,128107,1,2024-11-13_22h43.15.103,DelayDiscountingExperiment,2024.1.5,None,2024-11-13 22h43.22.614994 +0530
49,60,89,6,4,46,4,101.1769485,,101.1631868,101.1769485,102.1619817,102.1619817,102.1785203,103.7316809,t,1.5619889,None,128107,1,2024-11-13_22h43.15.103,DelayDiscountingExperiment,2024.1.5,None,2024-11-13 22h43.22.614994 +0530
67,75,119,6,5,47,5,103.7471627,,103.7328341,103.7471627,104.7477426,104.7477426,104.7477426,105.9844407,t,1.220254,None,128107,1,2024-11-13_22h43.15.103,DelayDiscountingExperiment,2024.1.5,None,2024-11-13 22h43.22.614994 +0530
27,50,21,6,6,48,2,105.9989032,,105.9859785,105.9989032,107.0007216,107.0007216,107.0007216,110.6890927,t,3.6820239,None,128107,1,2024-11-13_22h43.15.103,DelayDiscountingExperiment,2024.1.5,None,2024-11-13 22h43.22.614994 +0530
78,80,162,7,0,49,6,110.7037443,,110.6900714,110.7037443,111.6887835,111.6887835,111.705402,113.475825,t,1.7746599,None,128107,1,2024-11-13_22h43.15.103,DelayDiscountingExperiment,2024.1.5,None,2024-11-13 22h43.22.614994 +0530
49,60,89,7,1,50,4,113.4911301,,113.4772588,113.4911301,114.4920591,114.4920591,114.4920591,115.527822,t,1.0218173,None,128107,1,2024-11-13_22h43.15.103,DelayDiscountingExperiment,2024.1.5,None,2024-11-13 22h43.22.614994 +0530
27,50,21,7,2,51,2,115.542387,,115.5288309,115.542387,116.5275849,116.5275849,116.5441988,117.7473797,t,1.2181444,None,128107,1,2024-11-13_22h43.15.103,DelayDiscountingExperiment,2024.1.5,None,2024-11-13 22h43.22.614994 +0530
67,75,119,7,3,52,5,117.7614572,,117.7482846,117.7614572,118.7634869,118.7634869,118.7634869,119.3825424,t,0.6118846,None,128107,1,2024-11-13_22h43.15.103,DelayDiscountingExperiment,2024.1.5,None,2024-11-13 22h43.22.614994 +0530
11,30,7,7,4,53,0,119.3971392,,119.3836037,119.3971392,120.3984372,120.3984372,120.3984372,121.25182,l,0.8367866,None,128107,1,2024-11-13_22h43.15.103,DelayDiscountingExperiment,2024.1.5,None,2024-11-13 22h43.22.614994 +0530
40,55,62,7,5,54,3,121.2658738,,121.252869,121.2658738,122.2670015,122.2670015,122.2670015,123.8553931,t,1.579196,None,128107,1,2024-11-13_22h43.15.103,DelayDiscountingExperiment,2024.1.5,None,2024-11-13 22h43.22.614994 +0530
15,35,13,7,6,55,1,123.8694821,,123.8569824,123.8694821,124.8702611,124.8702611,124.8702611,127.1749761,t,2.2995307,None,128107,1,2024-11-13_22h43.15.103,DelayDiscountingExperiment,2024.1.5,None,2024-11-13 22h43.22.614994 +0530
27,50,21,8,0,56,2,127.1901125,,127.1761742,127.1901125,128.1905151,128.1905151,128.1905151,131.3954256,t,3.1898575,None,128107,1,2024-11-13_22h43.15.103,DelayDiscountingExperiment,2024.1.5,None,2024-11-13 22h43.22.614994 +0530
11,30,7,8,1,57,0,131.4100457,,131.3965041,131.4100457,132.4116104,132.4116104,132.4116104,133.0642648,l,0.6432299,None,128107,1,2024-11-13_22h43.15.103,DelayDiscountingExperiment,2024.1.5,None,2024-11-13 22h43.22.614994 +0530
78,80,162,8,2,58,6,133.0785183,,133.0655516,133.0785183,134.0800942,134.0800942,134.0800942,134.799211,t,0.7047802,None,128107,1,2024-11-13_22h43.15.103,DelayDiscountingExperiment,2024.1.5,None,2024-11-13 22h43.22.614994 +0530
67,75,119,8,3,59,5,134.8138595,,134.8003098,134.8138595,135.815863,135.815863,135.815863,136.3508906,t,0.533395,None,128107,1,2024-11-13_22h43.15.103,DelayDiscountingExperiment,2024.1.5,None,2024-11-13 22h43.22.614994 +0530
40,55,62,8,4,60,3,136.3656697,,136.351926,136.3656697,137.3506343,137.3506343,137.3671939,138.4358992,t,1.0805631,None,128107,1,2024-11-13_22h43.15.103,DelayDiscountingExperiment,2024.1.5,None,2024-11-13 22h43.22.614994 +0530
15,35,13,8,5,61,1,138.4506444,,138.4364342,138.4506444,139.4364168,139.4364168,139.4526426,140.3387768,t,0.8867062,None,128107,1,2024-11-13_22h43.15.103,DelayDiscountingExperiment,2024.1.5,None,2024-11-13 22h43.22.614994 +0530
49,60,89,8,6,62,4,140.3537515,,140.3399387,140.3537515,141.3549664,141.3549664,141.3549664,142.2404327,t,0.8686561,None,128107,1,2024-11-13_22h43.15.103,DelayDiscountingExperiment,2024.1.5,None,2024-11-13 22h43.22.614994 +0530
78,80,162,9,0,63,6,142.2561901,,142.2415346,142.2561901,143.2403053,143.2403053,143.2570095,143.8426898,t,0.5925677,None,128107,1,2024-11-13_22h43.15.103,DelayDiscountingExperiment,2024.1.5,None,2024-11-13 22h43.22.614994 +0530
27,50,21,9,1,64,2,143.8577285,,143.843797,143.8577285,144.859023,144.859023,144.859023,145.4103795,t,0.5349408,None,128107,1,2024-11-13_22h43.15.103,DelayDiscountingExperiment,2024.1.5,None,2024-11-13 22h43.22.614994 +0530
40,55,62,9,2,65,3,145.42557,,145.4114116,145.42557,146.4108065,146.4108065,146.4273859,147.0294799,t,0.6061775,None,128107,1,2024-11-13_22h43.15.103,DelayDiscountingExperiment,2024.1.5,None,2024-11-13 22h43.22.614994 +0530
49,60,89,9,3,66,4,147.0437547,,147.0304768,147.0437547,148.0454047,148.0454047,148.0454047,149.3484816,t,1.2881865,None,128107,1,2024-11-13_22h43.15.103,DelayDiscountingExperiment,2024.1.5,None,2024-11-13 22h43.22.614994 +0530
15,35,13,9,4,67,1,149.363786,,149.3495982,149.363786,150.3647882,150.3647882,150.3647882,150.9667662,l,0.5956589,None,128107,1,2024-11-13_22h43.15.103,DelayDiscountingExperiment,2024.1.5,None,2024-11-13 22h43.22.614994 +0530
67,75,119,9,5,68,5,150.9813957,,150.9678039,150.9813957,151.9665135,151.9665135,151.9831437,152.5870028,t,0.6145777,None,128107,1,2024-11-13_22h43.15.103,DelayDiscountingExperiment,2024.1.5,None,2024-11-13 22h43.22.614994 +0530
11,30,7,9,6,69,0,152.6009763,,152.5881517,152.6009763,153.6016828,153.6016828,153.6016828,155.656275,l,2.0497761,None,128107,1,2024-11-13_22h43.15.103,DelayDiscountingExperiment,2024.1.5,None,2024-11-13 22h43.22.614994 +0530
11,30,7,10,0,70,0,155.6702493,,155.6583372,155.6702493,156.6718714,156.6718714,156.6718714,160.0106852,l,3.3280518,None,128107,1,2024-11-13_22h43.15.103,DelayDiscountingExperiment,2024.1.5,None,2024-11-13 22h43.22.614994 +0530
67,75,119,10,1,71,5,160.0249646,,160.0119188,160.0249646,161.0266017,161.0266017,161.0266017,163.9821327,t,2.950316,None,128107,1,2024-11-13_22h43.15.103,DelayDiscountingExperiment,2024.1.5,None,2024-11-13 22h43.22.614994 +0530
27,50,21,10,2,72,2,163.9958233,,163.983237,163.9958233,164.9979234,164.9979234,164.9979234,167.5521454,l,2.5514665,None,128107,1,2024-11-13_22h43.15.103,DelayDiscountingExperiment,2024.1.5,None,2024-11-13 22h43.22.614994 +0530
78,80,162,10,3,73,6,167.5670125,,167.553254,167.5670125,168.5682237,168.5682237,168.5682237,171.4072402,t,2.8341441,None,128107,1,2024-11-13_22h43.15.103,DelayDiscountingExperiment,2024.1.5,None,2024-11-13 22h43.22.614994 +0530
15,35,13,10,4,74,1,171.4230569,,171.4086319,171.4230569,172.4224959,172.4224959,172.4224959,173.4751479,l,1.0385821,None,128107,1,2024-11-13_22h43.15.103,DelayDiscountingExperiment,2024.1.5,None,2024-11-13 22h43.22.614994 +0530
40,55,62,10,5,75,3,173.4898851,,173.4764433,173.4898851,174.4915334,174.4915334,174.4915334,177.4307292,t,2.93718,None,128107,1,2024-11-13_22h43.15.103,DelayDiscountingExperiment,2024.1.5,None,2024-11-13 22h43.22.614994 +0530
49,60,89,10,6,76,4,177.4448795,,177.4319308,177.4448795,178.4457475,178.4457475,178.4457475,179.1819822,t,0.7316819,None,128107,1,2024-11-13_22h43.15.103,DelayDiscountingExperiment,2024.1.5,None,2024-11-13 22h43.22.614994 +0530
15,35,13,11,0,77,1,179.19641,,179.1832537,179.19641,180.1978412,180.1978412,180.1978412,182.5184421,l,2.3085803,None,128107,1,2024-11-13_22h43.15.103,DelayDiscountingExperiment,2024.1.5,None,2024-11-13 22h43.22.614994 +0530
49,60,89,11,1,78,4,182.5346695,,182.5196491,182.5346695,183.5347913,183.5347913,183.5347913,185.6719787,t,2.1213388,None,128107,1,2024-11-13_22h43.15.103,DelayDiscountingExperiment,2024.1.5,None,2024-11-13 22h43.22.614994 +0530
27,50,21,11,2,79,2,185.6870663,,185.6731348,185.6870663,186.6880689,186.6880689,186.6880689,189.1591869,t,2.4561224,None,128107,1,2024-11-13_22h43.15.103,DelayDiscountingExperiment,2024.1.5,None,2024-11-13 22h43.22.614994 +0530
67,75,119,11,3,80,5,189.1757555,,189.1603646,189.1757555,190.1754565,190.1754565,190.1754565,190.7946193,t,0.6083762,None,128107,1,2024-11-13_22h43.15.103,DelayDiscountingExperiment,2024.1.5,None,2024-11-13 22h43.22.614994 +0530
78,80,162,11,4,81,6,190.8096762,,190.795849,190.8096762,191.8104869,191.8104869,191.8104869,192.3140941,t,0.4972214,None,128107,1,2024-11-13_22h43.15.103,DelayDiscountingExperiment,2024.1.5,None,2024-11-13 22h43.22.614994 +0530
11,30,7,11,5,82,0,192.329637,,192.3156353,192.329637,193.329167,193.329167,193.329167,194.648892,l,1.3123881,None,128107,1,2024-11-13_22h43.15.103,DelayDiscountingExperiment,2024.1.5,None,2024-11-13 22h43.22.614994 +0530
40,55,62,11,6,83,3,194.6649912,,194.6500868,194.6649912,195.6649058,195.6649058,195.6649058,198.2038156,t,2.5331638,None,128107,1,2024-11-13_22h43.15.103,DelayDiscountingExperiment,2024.1.5,None,2024-11-13 22h43.22.614994 +0530
67,75,119,12,0,84,5,198.2173294,,198.2049927,198.2173294,199.2185759,199.2185759,199.2185759,200.7373863,t,1.5112113,None,128107,1,2024-11-13_22h43.15.103,DelayDiscountingExperiment,2024.1.5,None,2024-11-13 22h43.22.614994 +0530
40,55,62,12,1,85,3,200.7527715,,200.7379971,200.7527715,201.7379336,201.7379336,201.7548743,205.4276162,t,3.6875343,None,128107,1,2024-11-13_22h43.15.103,DelayDiscountingExperiment,2024.1.5,None,2024-11-13 22h43.22.614994 +0530
78,80,162,12,2,86,6,205.4418112,,205.4287833,205.4418112,206.4431075,206.4431075,206.4431075,207.7303796,t,1.2802185,None,128107,1,2024-11-13_22h43.15.103,DelayDiscountingExperiment,2024.1.5,None,2024-11-13 22h43.22.614994 +0530
11,30,7,12,3,87,0,207.7449299,,207.7315926,207.7449299,208.745744,208.745744,208.745744,209.65392,l,0.9000902,None,128107,1,2024-11-13_22h43.15.103,DelayDiscountingExperiment,2024.1.5,None,2024-11-13 22h43.22.614994 +0530
49,60,89,12,4,88,4,209.6679188,,209.6562565,209.6679188,210.6645046,210.6645046,210.6811794,211.9515929,t,1.2847483,None,128107,1,2024-11-13_22h43.15.103,DelayDiscountingExperiment,2024.1.5,None,2024-11-13 22h43.22.614994 +0530
15,35,13,12,5,89,1,211.9656423,,211.9528358,211.9656423,212.9671111,212.9671111,212.9671111,216.8899181,l,3.9138735,None,128107,1,2024-11-13_22h43.15.103,DelayDiscountingExperiment,2024.1.5,None,2024-11-13 22h43.22.614994 +0530
27,50,21,12,6,90,2,216.90401,,216.8909918,216.90401,217.9057928,217.9057928,217.9057928,220.2763349,t,2.3556872,None,128107,1,2024-11-13_22h43.15.103,DelayDiscountingExperiment,2024.1.5,None,2024-11-13 22h43.22.614994 +0530
15,35,13,13,0,91,1,220.2915549,,220.2772068,220.2915549,221.2763299,221.2763299,221.2931059,224.8818245,l,3.5980314,None,128107,1,2024-11-13_22h43.15.103,DelayDiscountingExperiment,2024.1.5,None,2024-11-13 22h43.22.614994 +0530
78,80,162,13,1,92,6,224.8963208,,224.8828648,224.8963208,225.89779,225.89779,225.89779,227.0844105,t,1.1762991,None,128107,1,2024-11-13_22h43.15.103,DelayDiscountingExperiment,2024.1.5,None,2024-11-13 22h43.22.614994 +0530
27,50,21,13,2,93,2,227.0991381,,227.0857662,227.0991381,228.1005123,228.1005123,228.1005123,229.1207005,t,1.0183189,None,128107,1,2024-11-13_22h43.15.103,DelayDiscountingExperiment,2024.1.5,None,2024-11-13 22h43.22.614994 +0530
67,75,119,13,3,94,5,229.1354687,,229.1218811,229.1354687,230.1360541,230.1360541,230.1360541,231.0899548,t,0.9392691,None,128107,1,2024-11-13_22h43.15.103,DelayDiscountingExperiment,2024.1.5,None,2024-11-13 22h43.22.614994 +0530
49,60,89,13,4,95,4,231.1037731,,231.0914086,231.1037731,232.1051864,232.1051864,232.1051864,232.5078468,t,0.3975769,None,128107,1,2024-11-13_22h43.15.103,DelayDiscountingExperiment,2024.1.5,None,2024-11-13 22h43.22.614994 +0530
11,30,7,13,5,96,0,232.5218578,,232.5092458,232.5218578,233.5228285,233.5228285,233.5228285,234.843782,l,1.3126708,None,128107,1,2024-11-13_22h43.15.103,DelayDiscountingExperiment,2024.1.5,None,2024-11-13 22h43.22.614994 +0530
40,55,62,13,6,97,3,234.8580531,,234.8451491,234.8580531,235.859606,235.859606,235.859606,236.9281955,t,1.0596917,None,128107,1,2024-11-13_22h43.15.103,DelayDiscountingExperiment,2024.1.5,None,2024-11-13 22h43.22.614994 +0530
27,50,21,14,0,98,2,236.9435651,,236.9292315,236.9435651,237.9278758,237.9278758,237.9446898,238.5957252,t,0.6591556,None,128107,1,2024-11-13_22h43.15.103,DelayDiscountingExperiment,2024.1.5,None,2024-11-13 22h43.22.614994 +0530
49,60,89,14,1,99,4,238.6111279,,238.5964732,238.6111279,239.596255,239.596255,239.6132696,240.2825605,t,0.6732964,None,128107,1,2024-11-13_22h43.15.103,DelayDiscountingExperiment,2024.1.5,None,2024-11-13 22h43.22.614994 +0530
